PE IR       SUBTECH     SPECTRUM    ASCII       PEDS        4.00        
   -1
BH-2(1)40-41_1.asc
24/05/14
11:46:39.00
24/05/14
11:47:16.00
Administrator
?品 019 用? Administrator 日期 Tuesday, May 14 2024
550.000000
#HDR
-1
-1
#GR
cm-1
%T
1.0
0.0
4000.000000
-1.000000
3451
8
99.004298
88.773470
#DATA
4000.000000	98.899029
3999.000000	98.899857
3998.000000	98.895254
3997.000000	98.887040
3996.000000	98.877753
3995.000000	98.868844
3994.000000	98.861103
3993.000000	98.855710
3992.000000	98.853839
3991.000000	98.855452
3990.000000	98.859239
3989.000000	98.863795
3988.000000	98.868625
3987.000000	98.873818
3986.000000	98.878955
3985.000000	98.882718
3984.000000	98.883762
3983.000000	98.882003
3982.000000	98.878957
3981.000000	98.876599
3980.000000	98.875844
3979.000000	98.876359
3978.000000	98.877638
3977.000000	98.879576
3976.000000	98.881823
3975.000000	98.883379
3974.000000	98.883538
3973.000000	98.882884
3972.000000	98.882684
3971.000000	98.883335
3970.000000	98.883885
3969.000000	98.883140
3968.000000	98.880914
3967.000000	98.878208
3966.000000	98.876506
3965.000000	98.876842
3964.000000	98.879194
3963.000000	98.882428
3962.000000	98.884869
3961.000000	98.885224
3960.000000	98.883137
3959.000000	98.879273
3958.000000	98.875001
3957.000000	98.871637
3956.000000	98.869725
3955.000000	98.869056
3954.000000	98.869275
3953.000000	98.870198
3952.000000	98.871546
3951.000000	98.872689
3950.000000	98.873058
3949.000000	98.872655
3948.000000	98.871990
3947.000000	98.871564
3946.000000	98.871478
3945.000000	98.871485
3944.000000	98.871301
3943.000000	98.870897
3942.000000	98.870505
3941.000000	98.870342
3940.000000	98.870330
3939.000000	98.870180
3938.000000	98.869662
3937.000000	98.868773
3936.000000	98.867698
3935.000000	98.866722
3934.000000	98.866113
3933.000000	98.865949
3932.000000	98.866062
3931.000000	98.866171
3930.000000	98.866130
3929.000000	98.865971
3928.000000	98.865746
3927.000000	98.865430
3926.000000	98.865009
3925.000000	98.864630
3924.000000	98.864495
3923.000000	98.864607
3922.000000	98.864746
3921.000000	98.864681
3920.000000	98.864351
3919.000000	98.863821
3918.000000	98.863216
3917.000000	98.862698
3916.000000	98.862392
3915.000000	98.862306
3914.000000	98.862341
3913.000000	98.862403
3912.000000	98.862468
3911.000000	98.862541
3910.000000	98.862592
3909.000000	98.862581
3908.000000	98.862505
3907.000000	98.862419
3906.000000	98.862387
3905.000000	98.862407
3904.000000	98.862385
3903.000000	98.862217
3902.000000	98.861898
3901.000000	98.861600
3900.000000	98.861567
3899.000000	98.861886
3898.000000	98.862432
3897.000000	98.862975
3896.000000	98.863381
3895.000000	98.863654
3894.000000	98.863832
3893.000000	98.863915
3892.000000	98.863886
3891.000000	98.863800
3890.000000	98.863735
3889.000000	98.863717
3888.000000	98.863779
3887.000000	98.864006
3886.000000	98.864433
3885.000000	98.864979
3884.000000	98.865478
3883.000000	98.865825
3882.000000	98.866041
3881.000000	98.866221
3880.000000	98.866479
3879.000000	98.866861
3878.000000	98.867329
3877.000000	98.867821
3876.000000	98.868328
3875.000000	98.868905
3874.000000	98.869615
3873.000000	98.870408
3872.000000	98.871045
3871.000000	98.871270
3870.000000	98.871094
3869.000000	98.870879
3868.000000	98.870876
3867.000000	98.871036
3866.000000	98.871445
3865.000000	98.872341
3864.000000	98.873610
3863.000000	98.874702
3862.000000	98.875236
3861.000000	98.875366
3860.000000	98.875405
3859.000000	98.875508
3858.000000	98.875849
3857.000000	98.876846
3856.000000	98.878863
3855.000000	98.881258
3854.000000	98.882322
3853.000000	98.881605
3852.000000	98.880574
3851.000000	98.879683
3850.000000	98.878563
3849.000000	98.877563
3848.000000	98.877181
3847.000000	98.877437
3846.000000	98.878108
3845.000000	98.879272
3844.000000	98.881123
3843.000000	98.883625
3842.000000	98.886444
3841.000000	98.889272
3840.000000	98.891847
3839.000000	98.893866
3838.000000	98.894783
3837.000000	98.894316
3836.000000	98.892900
3835.000000	98.891049
3834.000000	98.888925
3833.000000	98.886521
3832.000000	98.884106
3831.000000	98.882189
3830.000000	98.880922
3829.000000	98.880134
3828.000000	98.879825
3827.000000	98.880337
3826.000000	98.881809
3825.000000	98.883543
3824.000000	98.884257
3823.000000	98.883488
3822.000000	98.881966
3821.000000	98.881042
3820.000000	98.881322
3819.000000	98.881286
3818.000000	98.880011
3817.000000	98.879322
3816.000000	98.881314
3815.000000	98.885301
3814.000000	98.887927
3813.000000	98.887169
3812.000000	98.884859
3811.000000	98.884253
3810.000000	98.886426
3809.000000	98.889793
3808.000000	98.892228
3807.000000	98.893283
3806.000000	98.893852
3805.000000	98.893680
3804.000000	98.891552
3803.000000	98.887433
3802.000000	98.882367
3801.000000	98.877949
3800.000000	98.874867
3799.000000	98.872309
3798.000000	98.870631
3797.000000	98.871315
3796.000000	98.874325
3795.000000	98.877535
3794.000000	98.878941
3793.000000	98.878613
3792.000000	98.878174
3791.000000	98.878887
3790.000000	98.880923
3789.000000	98.883884
3788.000000	98.887016
3787.000000	98.889050
3786.000000	98.888964
3785.000000	98.887283
3784.000000	98.885814
3783.000000	98.885728
3782.000000	98.886401
3781.000000	98.886505
3780.000000	98.885414
3779.000000	98.883618
3778.000000	98.881960
3777.000000	98.880820
3776.000000	98.880155
3775.000000	98.879841
3774.000000	98.879601
3773.000000	98.879065
3772.000000	98.878241
3771.000000	98.877702
3770.000000	98.877872
3769.000000	98.878339
3768.000000	98.878296
3767.000000	98.877671
3766.000000	98.877280
3765.000000	98.877748
3764.000000	98.878689
3763.000000	98.879162
3762.000000	98.878998
3761.000000	98.879231
3760.000000	98.880540
3759.000000	98.881937
3758.000000	98.881922
3757.000000	98.880620
3756.000000	98.879493
3755.000000	98.879392
3754.000000	98.879817
3753.000000	98.879519
3752.000000	98.877625
3751.000000	98.874843
3750.000000	98.873457
3749.000000	98.874736
3748.000000	98.876950
3747.000000	98.877161
3746.000000	98.874703
3745.000000	98.872006
3744.000000	98.872788
3743.000000	98.877309
3742.000000	98.881003
3741.000000	98.881837
3740.000000	98.882323
3739.000000	98.884252
3738.000000	98.885958
3737.000000	98.885468
3736.000000	98.884046
3735.000000	98.883672
3734.000000	98.883452
3733.000000	98.881697
3732.000000	98.879878
3731.000000	98.880465
3730.000000	98.882767
3729.000000	98.884277
3728.000000	98.884315
3727.000000	98.884325
3726.000000	98.885161
3725.000000	98.885118
3724.000000	98.882165
3723.000000	98.876763
3722.000000	98.871018
3721.000000	98.866119
3720.000000	98.861664
3719.000000	98.857378
3718.000000	98.853901
3717.000000	98.851878
3716.000000	98.850436
3715.000000	98.847505
3714.000000	98.842258
3713.000000	98.836221
3712.000000	98.831736
3711.000000	98.829600
3710.000000	98.828342
3709.000000	98.826112
3708.000000	98.822609
3707.000000	98.819081
3706.000000	98.816765
3705.000000	98.815887
3704.000000	98.815868
3703.000000	98.815553
3702.000000	98.813558
3701.000000	98.809263
3700.000000	98.803434
3699.000000	98.797508
3698.000000	98.792872
3697.000000	98.790383
3696.000000	98.789884
3695.000000	98.790254
3694.000000	98.790647
3693.000000	98.791148
3692.000000	98.791307
3691.000000	98.789067
3690.000000	98.782684
3689.000000	98.774097
3688.000000	98.767893
3687.000000	98.765620
3686.000000	98.764599
3685.000000	98.762408
3684.000000	98.759248
3683.000000	98.756078
3682.000000	98.752536
3681.000000	98.747731
3680.000000	98.742744
3679.000000	98.740142
3678.000000	98.741063
3677.000000	98.743010
3676.000000	98.741271
3675.000000	98.734444
3674.000000	98.724674
3673.000000	98.712917
3672.000000	98.700742
3671.000000	98.691159
3670.000000	98.685276
3669.000000	98.681594
3668.000000	98.677713
3667.000000	98.672417
3666.000000	98.666351
3665.000000	98.660352
3664.000000	98.654119
3663.000000	98.646740
3662.000000	98.637843
3661.000000	98.628194
3660.000000	98.619267
3659.000000	98.612003
3658.000000	98.606581
3657.000000	98.602687
3656.000000	98.600247
3655.000000	98.598456
3654.000000	98.594770
3653.000000	98.587820
3652.000000	98.580155
3651.000000	98.574974
3650.000000	98.571287
3649.000000	98.565837
3648.000000	98.559118
3647.000000	98.554219
3646.000000	98.551101
3645.000000	98.546757
3644.000000	98.539130
3643.000000	98.528944
3642.000000	98.517618
3641.000000	98.505331
3640.000000	98.491970
3639.000000	98.479605
3638.000000	98.472149
3637.000000	98.471233
3636.000000	98.474103
3635.000000	98.475905
3634.000000	98.473713
3633.000000	98.467144
3632.000000	98.457025
3631.000000	98.446300
3630.000000	98.439422
3629.000000	98.438484
3628.000000	98.441171
3627.000000	98.442178
3626.000000	98.438641
3625.000000	98.434520
3624.000000	98.434921
3623.000000	98.439341
3622.000000	98.442829
3621.000000	98.442035
3620.000000	98.439011
3619.000000	98.438444
3618.000000	98.441992
3617.000000	98.446464
3616.000000	98.448292
3615.000000	98.447787
3614.000000	98.448281
3613.000000	98.451847
3612.000000	98.456937
3611.000000	98.460787
3610.000000	98.463498
3609.000000	98.467939
3608.000000	98.475519
3607.000000	98.484267
3606.000000	98.491603
3605.000000	98.497832
3604.000000	98.505553
3603.000000	98.515838
3602.000000	98.526468
3601.000000	98.533813
3600.000000	98.536356
3599.000000	98.535396
3598.000000	98.534034
3597.000000	98.535403
3596.000000	98.540855
3595.000000	98.548361
3594.000000	98.553812
3593.000000	98.554020
3592.000000	98.548979
3591.000000	98.541861
3590.000000	98.536657
3589.000000	98.535057
3588.000000	98.535342
3587.000000	98.535454
3586.000000	98.535529
3585.000000	98.536594
3584.000000	98.538982
3583.000000	98.542366
3582.000000	98.546005
3581.000000	98.549139
3580.000000	98.551453
3579.000000	98.552953
3578.000000	98.553639
3577.000000	98.553434
3576.000000	98.552592
3575.000000	98.552060
3574.000000	98.553031
3573.000000	98.555952
3572.000000	98.559997
3571.000000	98.563705
3570.000000	98.565966
3569.000000	98.566476
3568.000000	98.565605
3567.000000	98.564325
3566.000000	98.563793
3565.000000	98.564265
3564.000000	98.564957
3563.000000	98.565059
3562.000000	98.564377
3561.000000	98.563277
3560.000000	98.562323
3559.000000	98.561944
3558.000000	98.562199
3557.000000	98.562777
3556.000000	98.563148
3555.000000	98.562869
3554.000000	98.561952
3553.000000	98.560961
3552.000000	98.560543
3551.000000	98.560774
3550.000000	98.561101
3549.000000	98.560854
3548.000000	98.559797
3547.000000	98.558309
3546.000000	98.557151
3545.000000	98.556814
3544.000000	98.557133
3543.000000	98.557552
3542.000000	98.557751
3541.000000	98.557923
3540.000000	98.558388
3539.000000	98.559065
3538.000000	98.559411
3537.000000	98.558926
3536.000000	98.557620
3535.000000	98.555984
3534.000000	98.554622
3533.000000	98.553883
3532.000000	98.553788
3531.000000	98.554136
3530.000000	98.554661
3529.000000	98.555183
3528.000000	98.555620
3527.000000	98.555867
3526.000000	98.555739
3525.000000	98.555114
3524.000000	98.554066
3523.000000	98.552803
3522.000000	98.551547
3521.000000	98.550508
3520.000000	98.549910
3519.000000	98.549863
3518.000000	98.550179
3517.000000	98.550421
3516.000000	98.550268
3515.000000	98.549774
3514.000000	98.549262
3513.000000	98.549007
3512.000000	98.549091
3511.000000	98.549479
3510.000000	98.550076
3509.000000	98.550688
3508.000000	98.551026
3507.000000	98.550828
3506.000000	98.549998
3505.000000	98.548715
3504.000000	98.547391
3503.000000	98.546469
3502.000000	98.546149
3501.000000	98.546281
3500.000000	98.546535
3499.000000	98.546685
3498.000000	98.546715
3497.000000	98.546665
3496.000000	98.546415
3495.000000	98.545659
3494.000000	98.544150
3493.000000	98.542088
3492.000000	98.540262
3491.000000	98.539587
3490.000000	98.540383
3489.000000	98.542121
3488.000000	98.543822
3487.000000	98.544908
3486.000000	98.545434
3485.000000	98.545608
3484.000000	98.545400
3483.000000	98.544680
3482.000000	98.543575
3481.000000	98.542456
3480.000000	98.541592
3479.000000	98.540973
3478.000000	98.540466
3477.000000	98.540021
3476.000000	98.539699
3475.000000	98.539584
3474.000000	98.539670
3473.000000	98.539784
3472.000000	98.539647
3471.000000	98.539065
3470.000000	98.538089
3469.000000	98.537009
3468.000000	98.536203
3467.000000	98.535903
3466.000000	98.536029
3465.000000	98.536181
3464.000000	98.535938
3463.000000	98.535259
3462.000000	98.534520
3461.000000	98.534110
3460.000000	98.534020
3459.000000	98.533925
3458.000000	98.533602
3457.000000	98.533130
3456.000000	98.532715
3455.000000	98.532475
3454.000000	98.532410
3453.000000	98.532417
3452.000000	98.532280
3451.000000	98.531796
3450.000000	98.530990
3449.000000	98.530110
3448.000000	98.529357
3447.000000	98.528691
3446.000000	98.527958
3445.000000	98.527142
3444.000000	98.526370
3443.000000	98.525691
3442.000000	98.524983
3441.000000	98.524142
3440.000000	98.523259
3439.000000	98.522554
3438.000000	98.522156
3437.000000	98.521977
3436.000000	98.521792
3435.000000	98.521442
3434.000000	98.520913
3433.000000	98.520270
3432.000000	98.519571
3431.000000	98.518829
3430.000000	98.518048
3429.000000	98.517278
3428.000000	98.516611
3427.000000	98.516114
3426.000000	98.515770
3425.000000	98.515477
3424.000000	98.515109
3423.000000	98.514603
3422.000000	98.514000
3421.000000	98.513405
3420.000000	98.512900
3419.000000	98.512489
3418.000000	98.512138
3417.000000	98.511822
3416.000000	98.511530
3415.000000	98.511227
3414.000000	98.510852
3413.000000	98.510374
3412.000000	98.509828
3411.000000	98.509309
3410.000000	98.508912
3409.000000	98.508673
3408.000000	98.508558
3407.000000	98.508509
3406.000000	98.508489
3405.000000	98.508482
3404.000000	98.508464
3403.000000	98.508397
3402.000000	98.508247
3401.000000	98.508018
3400.000000	98.507776
3399.000000	98.507627
3398.000000	98.507646
3397.000000	98.507823
3396.000000	98.508036
3395.000000	98.508142
3394.000000	98.508084
3393.000000	98.507936
3392.000000	98.507870
3391.000000	98.507992
3390.000000	98.508241
3389.000000	98.508433
3388.000000	98.508420
3387.000000	98.508214
3386.000000	98.507988
3385.000000	98.507938
3384.000000	98.508129
3383.000000	98.508450
3382.000000	98.508733
3381.000000	98.508963
3380.000000	98.509350
3379.000000	98.510183
3378.000000	98.511523
3377.000000	98.512997
3376.000000	98.513980
3375.000000	98.514115
3374.000000	98.513637
3373.000000	98.513201
3372.000000	98.513274
3371.000000	98.513753
3370.000000	98.514135
3369.000000	98.514025
3368.000000	98.513471
3367.000000	98.512891
3366.000000	98.512692
3365.000000	98.512942
3364.000000	98.513349
3363.000000	98.513499
3362.000000	98.513122
3361.000000	98.512271
3360.000000	98.511436
3359.000000	98.511393
3358.000000	98.512652
3357.000000	98.514963
3356.000000	98.517465
3355.000000	98.519512
3354.000000	98.521234
3353.000000	98.522976
3352.000000	98.524456
3351.000000	98.525009
3350.000000	98.524610
3349.000000	98.524134
3348.000000	98.524409
3347.000000	98.525299
3346.000000	98.526051
3345.000000	98.526243
3344.000000	98.526016
3343.000000	98.525584
3342.000000	98.524948
3341.000000	98.524124
3340.000000	98.523340
3339.000000	98.522932
3338.000000	98.523239
3337.000000	98.524630
3336.000000	98.527359
3335.000000	98.531173
3334.000000	98.535135
3333.000000	98.538056
3332.000000	98.539280
3331.000000	98.539126
3330.000000	98.538678
3329.000000	98.539077
3328.000000	98.540697
3327.000000	98.542867
3326.000000	98.544385
3325.000000	98.544471
3324.000000	98.543334
3323.000000	98.541935
3322.000000	98.541127
3321.000000	98.540952
3320.000000	98.540850
3319.000000	98.540594
3318.000000	98.540828
3317.000000	98.542396
3316.000000	98.545211
3315.000000	98.548040
3314.000000	98.549668
3313.000000	98.550069
3312.000000	98.550093
3311.000000	98.550277
3310.000000	98.550337
3309.000000	98.549838
3308.000000	98.548942
3307.000000	98.548289
3306.000000	98.548317
3305.000000	98.548936
3304.000000	98.549683
3303.000000	98.550079
3302.000000	98.549935
3301.000000	98.549437
3300.000000	98.548966
3299.000000	98.548789
3298.000000	98.548922
3297.000000	98.549214
3296.000000	98.549504
3295.000000	98.549745
3294.000000	98.550030
3293.000000	98.550459
3292.000000	98.550924
3291.000000	98.551133
3290.000000	98.550957
3289.000000	98.550699
3288.000000	98.550827
3287.000000	98.551449
3286.000000	98.552242
3285.000000	98.552866
3284.000000	98.553318
3283.000000	98.553761
3282.000000	98.554232
3281.000000	98.554652
3280.000000	98.555018
3279.000000	98.555433
3278.000000	98.555953
3277.000000	98.556509
3276.000000	98.556979
3275.000000	98.557321
3274.000000	98.557592
3273.000000	98.557892
3272.000000	98.558267
3271.000000	98.558693
3270.000000	98.559126
3269.000000	98.559535
3268.000000	98.559925
3267.000000	98.560320
3266.000000	98.560742
3265.000000	98.561192
3264.000000	98.561654
3263.000000	98.562102
3262.000000	98.562527
3261.000000	98.562936
3260.000000	98.563350
3259.000000	98.563784
3258.000000	98.564243
3257.000000	98.564715
3256.000000	98.565201
3255.000000	98.565718
3254.000000	98.566270
3253.000000	98.566839
3252.000000	98.567399
3251.000000	98.567942
3250.000000	98.568480
3249.000000	98.569029
3248.000000	98.569597
3247.000000	98.570179
3246.000000	98.570767
3245.000000	98.571357
3244.000000	98.571951
3243.000000	98.572553
3242.000000	98.573169
3241.000000	98.573798
3240.000000	98.574437
3239.000000	98.575082
3238.000000	98.575732
3237.000000	98.576384
3236.000000	98.577028
3235.000000	98.577658
3234.000000	98.578281
3233.000000	98.578916
3232.000000	98.579579
3231.000000	98.580279
3230.000000	98.581016
3229.000000	98.581783
3228.000000	98.582565
3227.000000	98.583353
3226.000000	98.584150
3225.000000	98.584960
3224.000000	98.585778
3223.000000	98.586594
3222.000000	98.587416
3221.000000	98.588263
3220.000000	98.589132
3219.000000	98.589996
3218.000000	98.590841
3217.000000	98.591698
3216.000000	98.592612
3215.000000	98.593580
3214.000000	98.594547
3213.000000	98.595448
3212.000000	98.596267
3211.000000	98.597071
3210.000000	98.597971
3209.000000	98.599006
3208.000000	98.600095
3207.000000	98.601110
3206.000000	98.602009
3205.000000	98.602863
3204.000000	98.603769
3203.000000	98.604702
3202.000000	98.605526
3201.000000	98.606156
3200.000000	98.606685
3199.000000	98.607329
3198.000000	98.608209
3197.000000	98.609223
3196.000000	98.610144
3195.000000	98.610850
3194.000000	98.611446
3193.000000	98.612180
3192.000000	98.613288
3191.000000	98.614837
3190.000000	98.616623
3189.000000	98.618231
3188.000000	98.619259
3187.000000	98.619543
3186.000000	98.619215
3185.000000	98.618700
3184.000000	98.618609
3183.000000	98.619336
3182.000000	98.620642
3181.000000	98.621787
3180.000000	98.622314
3179.000000	98.622530
3178.000000	98.622956
3177.000000	98.623534
3176.000000	98.623781
3175.000000	98.623563
3174.000000	98.623227
3173.000000	98.623061
3172.000000	98.623170
3171.000000	98.623887
3170.000000	98.625572
3169.000000	98.627704
3168.000000	98.628954
3167.000000	98.628683
3166.000000	98.627912
3165.000000	98.628174
3164.000000	98.629698
3163.000000	98.631349
3162.000000	98.632216
3161.000000	98.632564
3160.000000	98.633029
3159.000000	98.633607
3158.000000	98.633940
3157.000000	98.634247
3156.000000	98.635354
3155.000000	98.637767
3154.000000	98.641110
3153.000000	98.644405
3152.000000	98.646830
3151.000000	98.648191
3150.000000	98.648862
3149.000000	98.649492
3148.000000	98.650521
3147.000000	98.651845
3146.000000	98.653004
3145.000000	98.653749
3144.000000	98.654310
3143.000000	98.654997
3142.000000	98.655688
3141.000000	98.656019
3140.000000	98.656016
3139.000000	98.656215
3138.000000	98.657104
3137.000000	98.658632
3136.000000	98.660308
3135.000000	98.661614
3134.000000	98.662311
3133.000000	98.662491
3132.000000	98.662484
3131.000000	98.662691
3130.000000	98.663327
3129.000000	98.664333
3128.000000	98.665523
3127.000000	98.666743
3126.000000	98.667903
3125.000000	98.668966
3124.000000	98.669962
3123.000000	98.670959
3122.000000	98.671956
3121.000000	98.672851
3120.000000	98.673573
3119.000000	98.674187
3118.000000	98.674846
3117.000000	98.675647
3116.000000	98.676556
3115.000000	98.677473
3114.000000	98.678329
3113.000000	98.679144
3112.000000	98.679992
3111.000000	98.680924
3110.000000	98.681916
3109.000000	98.682906
3108.000000	98.683843
3107.000000	98.684731
3106.000000	98.685594
3105.000000	98.686456
3104.000000	98.687335
3103.000000	98.688242
3102.000000	98.689185
3101.000000	98.690164
3100.000000	98.691172
3099.000000	98.692197
3098.000000	98.693217
3097.000000	98.694210
3096.000000	98.695158
3095.000000	98.696064
3094.000000	98.696943
3093.000000	98.697831
3092.000000	98.698776
3091.000000	98.699808
3090.000000	98.700911
3089.000000	98.702012
3088.000000	98.703037
3087.000000	98.703960
3086.000000	98.704819
3085.000000	98.705678
3084.000000	98.706572
3083.000000	98.707502
3082.000000	98.708451
3081.000000	98.709383
3080.000000	98.710258
3079.000000	98.711053
3078.000000	98.711763
3077.000000	98.712376
3076.000000	98.712891
3075.000000	98.713378
3074.000000	98.713956
3073.000000	98.714699
3072.000000	98.715551
3071.000000	98.716362
3070.000000	98.716975
3069.000000	98.717307
3068.000000	98.717414
3067.000000	98.717538
3066.000000	98.717950
3065.000000	98.718656
3064.000000	98.719318
3063.000000	98.719658
3062.000000	98.719866
3061.000000	98.720413
3060.000000	98.721466
3059.000000	98.722636
3058.000000	98.723377
3057.000000	98.723429
3056.000000	98.722816
3055.000000	98.721710
3054.000000	98.720444
3053.000000	98.719463
3052.000000	98.719085
3051.000000	98.719345
3050.000000	98.719999
3049.000000	98.720615
3048.000000	98.720752
3047.000000	98.720257
3046.000000	98.719442
3045.000000	98.718877
3044.000000	98.718807
3043.000000	98.718917
3042.000000	98.718671
3041.000000	98.717822
3040.000000	98.716548
3039.000000	98.715280
3038.000000	98.714453
3037.000000	98.714285
3036.000000	98.714627
3035.000000	98.715049
3034.000000	98.715175
3033.000000	98.714896
3032.000000	98.714173
3031.000000	98.712830
3030.000000	98.710757
3029.000000	98.708291
3028.000000	98.706164
3027.000000	98.704911
3026.000000	98.704357
3025.000000	98.703863
3024.000000	98.703176
3023.000000	98.702798
3022.000000	98.703302
3021.000000	98.704501
3020.000000	98.705593
3019.000000	98.706177
3018.000000	98.706684
3017.000000	98.707545
3016.000000	98.708287
3015.000000	98.707891
3014.000000	98.705895
3013.000000	98.702814
3012.000000	98.699586
3011.000000	98.696929
3010.000000	98.695163
3009.000000	98.694255
3008.000000	98.693944
3007.000000	98.694048
3006.000000	98.694516
3005.000000	98.694912
3004.000000	98.694190
3003.000000	98.691671
3002.000000	98.688217
3001.000000	98.685840
3000.000000	98.685840
2999.000000	98.687820
2998.000000	98.690302
2997.000000	98.691967
2996.000000	98.692349
2995.000000	98.691801
2994.000000	98.691001
2993.000000	98.690154
2992.000000	98.688649
2991.000000	98.685932
2990.000000	98.682721
2989.000000	98.680781
2988.000000	98.681241
2987.000000	98.683577
2986.000000	98.686247
2985.000000	98.687950
2984.000000	98.688227
2983.000000	98.687559
2982.000000	98.687287
2981.000000	98.688908
2980.000000	98.692785
2979.000000	98.697546
2978.000000	98.701070
2977.000000	98.702226
2976.000000	98.701626
2975.000000	98.700973
2974.000000	98.701574
2973.000000	98.703145
2972.000000	98.704000
2971.000000	98.702706
2970.000000	98.699506
2969.000000	98.695863
2968.000000	98.692799
2967.000000	98.690283
2966.000000	98.688269
2965.000000	98.687267
2964.000000	98.687233
2963.000000	98.686678
2962.000000	98.683928
2961.000000	98.679281
2960.000000	98.675200
2959.000000	98.674009
2958.000000	98.675745
2957.000000	98.678303
2956.000000	98.679375
2955.000000	98.678204
2954.000000	98.675619
2953.000000	98.672909
2952.000000	98.670881
2951.000000	98.669798
2950.000000	98.669746
2949.000000	98.670644
2948.000000	98.671975
2947.000000	98.672877
2946.000000	98.672717
2945.000000	98.671527
2944.000000	98.669936
2943.000000	98.668751
2942.000000	98.668453
2941.000000	98.668788
2940.000000	98.668817
2939.000000	98.667670
2938.000000	98.665394
2937.000000	98.662896
2936.000000	98.661005
2935.000000	98.659851
2934.000000	98.659201
2933.000000	98.659056
2932.000000	98.659756
2931.000000	98.661610
2930.000000	98.664559
2929.000000	98.668033
2928.000000	98.671009
2927.000000	98.672504
2926.000000	98.672283
2925.000000	98.671052
2924.000000	98.669833
2923.000000	98.669154
2922.000000	98.669053
2921.000000	98.669635
2920.000000	98.671238
2919.000000	98.674025
2918.000000	98.677634
2917.000000	98.681324
2916.000000	98.684348
2915.000000	98.686131
2914.000000	98.686326
2913.000000	98.685086
2912.000000	98.683421
2911.000000	98.682730
2910.000000	98.683572
2909.000000	98.685125
2908.000000	98.686106
2907.000000	98.686220
2906.000000	98.686308
2905.000000	98.687083
2904.000000	98.688359
2903.000000	98.689743
2902.000000	98.691516
2901.000000	98.694226
2900.000000	98.697721
2899.000000	98.701010
2898.000000	98.703250
2897.000000	98.704470
2896.000000	98.705345
2895.000000	98.706551
2894.000000	98.708303
2893.000000	98.710297
2892.000000	98.712015
2891.000000	98.713227
2890.000000	98.714192
2889.000000	98.715297
2888.000000	98.716554
2887.000000	98.717636
2886.000000	98.718378
2885.000000	98.719049
2884.000000	98.720169
2883.000000	98.722224
2882.000000	98.725492
2881.000000	98.729713
2880.000000	98.733774
2879.000000	98.736257
2878.000000	98.736538
2877.000000	98.735236
2876.000000	98.733667
2875.000000	98.732846
2874.000000	98.733174
2873.000000	98.734708
2872.000000	98.737220
2871.000000	98.740054
2870.000000	98.742403
2869.000000	98.743906
2868.000000	98.744876
2867.000000	98.745875
2866.000000	98.747029
2865.000000	98.747795
2864.000000	98.747466
2863.000000	98.746033
2862.000000	98.744589
2861.000000	98.744574
2860.000000	98.746441
2859.000000	98.749197
2858.000000	98.751287
2857.000000	98.751982
2856.000000	98.751773
2855.000000	98.751747
2854.000000	98.752772
2853.000000	98.755029
2852.000000	98.757979
2851.000000	98.760826
2850.000000	98.763251
2849.000000	98.765604
2848.000000	98.768282
2847.000000	98.771188
2846.000000	98.773934
2845.000000	98.776252
2844.000000	98.777916
2843.000000	98.778638
2842.000000	98.778568
2841.000000	98.778700
2840.000000	98.780099
2839.000000	98.782621
2838.000000	98.784982
2837.000000	98.786283
2836.000000	98.786997
2835.000000	98.788222
2834.000000	98.790348
2833.000000	98.792891
2832.000000	98.795296
2831.000000	98.797309
2830.000000	98.798641
2829.000000	98.798940
2828.000000	98.798380
2827.000000	98.797881
2826.000000	98.798297
2825.000000	98.799507
2824.000000	98.800726
2823.000000	98.801522
2822.000000	98.802135
2821.000000	98.802834
2820.000000	98.803482
2819.000000	98.804012
2818.000000	98.804911
2817.000000	98.806742
2816.000000	98.809385
2815.000000	98.812072
2814.000000	98.814126
2813.000000	98.815424
2812.000000	98.816112
2811.000000	98.816303
2810.000000	98.816179
2809.000000	98.816106
2808.000000	98.816392
2807.000000	98.817004
2806.000000	98.817680
2805.000000	98.818270
2804.000000	98.818881
2803.000000	98.819721
2802.000000	98.820874
2801.000000	98.822185
2800.000000	98.823334
2799.000000	98.824087
2798.000000	98.824505
2797.000000	98.824898
2796.000000	98.825531
2795.000000	98.826431
2794.000000	98.827484
2793.000000	98.828598
2792.000000	98.829727
2791.000000	98.830803
2790.000000	98.831746
2789.000000	98.832522
2788.000000	98.833155
2787.000000	98.833713
2786.000000	98.834301
2785.000000	98.835048
2784.000000	98.836028
2783.000000	98.837181
2782.000000	98.838318
2781.000000	98.839281
2780.000000	98.840043
2779.000000	98.840661
2778.000000	98.841179
2777.000000	98.841627
2776.000000	98.842095
2775.000000	98.842718
2774.000000	98.843573
2773.000000	98.844615
2772.000000	98.845689
2771.000000	98.846619
2770.000000	98.847278
2769.000000	98.847649
2768.000000	98.847876
2767.000000	98.848225
2766.000000	98.848889
2765.000000	98.849830
2764.000000	98.850811
2763.000000	98.851635
2762.000000	98.852289
2761.000000	98.852793
2760.000000	98.853009
2759.000000	98.852786
2758.000000	98.852294
2757.000000	98.852078
2756.000000	98.852602
2755.000000	98.853844
2754.000000	98.855354
2753.000000	98.856678
2752.000000	98.857640
2751.000000	98.858210
2750.000000	98.858290
2749.000000	98.857737
2748.000000	98.856562
2747.000000	98.855113
2746.000000	98.854030
2745.000000	98.853884
2744.000000	98.854748
2743.000000	98.856138
2742.000000	98.857547
2741.000000	98.858935
2740.000000	98.860493
2739.000000	98.862036
2738.000000	98.863008
2737.000000	98.863186
2736.000000	98.863035
2735.000000	98.863177
2734.000000	98.863666
2733.000000	98.864070
2732.000000	98.864128
2731.000000	98.863982
2730.000000	98.863806
2729.000000	98.863574
2728.000000	98.863264
2727.000000	98.863008
2726.000000	98.862919
2725.000000	98.862942
2724.000000	98.862998
2723.000000	98.863150
2722.000000	98.863503
2721.000000	98.864040
2720.000000	98.864641
2719.000000	98.865145
2718.000000	98.865428
2717.000000	98.865481
2716.000000	98.865436
2715.000000	98.865446
2714.000000	98.865543
2713.000000	98.865659
2712.000000	98.865758
2711.000000	98.865847
2710.000000	98.865930
2709.000000	98.866009
2708.000000	98.866088
2707.000000	98.866168
2706.000000	98.866250
2705.000000	98.866329
2704.000000	98.866393
2703.000000	98.866432
2702.000000	98.866438
2701.000000	98.866413
2700.000000	98.866367
2699.000000	98.866311
2698.000000	98.866249
2697.000000	98.866183
2696.000000	98.866112
2695.000000	98.866039
2694.000000	98.865971
2693.000000	98.865912
2692.000000	98.865874
2691.000000	98.865865
2690.000000	98.865890
2689.000000	98.865945
2688.000000	98.866016
2687.000000	98.866089
2686.000000	98.866155
2685.000000	98.866213
2684.000000	98.866265
2683.000000	98.866311
2682.000000	98.866342
2681.000000	98.866352
2680.000000	98.866337
2679.000000	98.866300
2678.000000	98.866247
2677.000000	98.866178
2676.000000	98.866116
2675.000000	98.866069
2674.000000	98.865987
2673.000000	98.865836
2672.000000	98.865706
2671.000000	98.865683
2670.000000	98.865664
2669.000000	98.865459
2668.000000	98.865104
2667.000000	98.864887
2666.000000	98.864945
2665.000000	98.864998
2664.000000	98.864675
2663.000000	98.864038
2662.000000	98.863599
2661.000000	98.863779
2660.000000	98.864518
2659.000000	98.865365
2658.000000	98.865849
2657.000000	98.865743
2656.000000	98.865143
2655.000000	98.864481
2654.000000	98.864352
2653.000000	98.865143
2652.000000	98.866752
2651.000000	98.868644
2650.000000	98.870188
2649.000000	98.870914
2648.000000	98.870535
2647.000000	98.868999
2646.000000	98.866592
2645.000000	98.863821
2644.000000	98.861172
2643.000000	98.859025
2642.000000	98.857760
2641.000000	98.857697
2640.000000	98.858731
2639.000000	98.860142
2638.000000	98.860953
2637.000000	98.860620
2636.000000	98.859349
2635.000000	98.857894
2634.000000	98.857043
2633.000000	98.857122
2632.000000	98.857836
2631.000000	98.858482
2630.000000	98.858448
2629.000000	98.857664
2628.000000	98.856651
2627.000000	98.856111
2626.000000	98.856343
2625.000000	98.857008
2624.000000	98.857441
2623.000000	98.857266
2622.000000	98.856667
2621.000000	98.856059
2620.000000	98.855625
2619.000000	98.855280
2618.000000	98.854999
2617.000000	98.854928
2616.000000	98.855124
2615.000000	98.855391
2614.000000	98.855488
2613.000000	98.855389
2612.000000	98.855193
2611.000000	98.854889
2610.000000	98.854421
2609.000000	98.853884
2608.000000	98.853447
2607.000000	98.853162
2606.000000	98.852972
2605.000000	98.852824
2604.000000	98.852710
2603.000000	98.852628
2602.000000	98.852568
2601.000000	98.852518
2600.000000	98.852469
2599.000000	98.852420
2598.000000	98.852372
2597.000000	98.852332
2596.000000	98.852307
2595.000000	98.852293
2594.000000	98.852285
2593.000000	98.852273
2592.000000	98.852253
2591.000000	98.852223
2590.000000	98.852185
2589.000000	98.852141
2588.000000	98.852092
2587.000000	98.852046
2586.000000	98.852012
2585.000000	98.851995
2584.000000	98.851987
2583.000000	98.851979
2582.000000	98.851967
2581.000000	98.851952
2580.000000	98.851941
2579.000000	98.851936
2578.000000	98.851938
2577.000000	98.851941
2576.000000	98.851937
2575.000000	98.851919
2574.000000	98.851884
2573.000000	98.851827
2572.000000	98.851748
2571.000000	98.851649
2570.000000	98.851540
2569.000000	98.851445
2568.000000	98.851388
2567.000000	98.851383
2566.000000	98.851418
2565.000000	98.851451
2564.000000	98.851446
2563.000000	98.851395
2562.000000	98.851341
2561.000000	98.851348
2560.000000	98.851440
2559.000000	98.851592
2558.000000	98.851769
2557.000000	98.851959
2556.000000	98.852104
2555.000000	98.852077
2554.000000	98.851817
2553.000000	98.851454
2552.000000	98.851207
2551.000000	98.851128
2550.000000	98.851071
2549.000000	98.850879
2548.000000	98.850564
2547.000000	98.850271
2546.000000	98.850135
2545.000000	98.850201
2544.000000	98.850427
2543.000000	98.850692
2542.000000	98.850812
2541.000000	98.850673
2540.000000	98.850346
2539.000000	98.850042
2538.000000	98.849881
2537.000000	98.849756
2536.000000	98.849493
2535.000000	98.849119
2534.000000	98.848884
2533.000000	98.848984
2532.000000	98.849363
2531.000000	98.849781
2530.000000	98.850036
2529.000000	98.850104
2528.000000	98.850112
2527.000000	98.850264
2526.000000	98.850706
2525.000000	98.851384
2524.000000	98.852012
2523.000000	98.852301
2522.000000	98.852202
2521.000000	98.851937
2520.000000	98.851758
2519.000000	98.851726
2518.000000	98.851810
2517.000000	98.852060
2516.000000	98.852550
2515.000000	98.853198
2514.000000	98.853781
2513.000000	98.854168
2512.000000	98.854430
2511.000000	98.854668
2510.000000	98.854808
2509.000000	98.854711
2508.000000	98.854502
2507.000000	98.854581
2506.000000	98.855209
2505.000000	98.856201
2504.000000	98.857089
2503.000000	98.857637
2502.000000	98.857989
2501.000000	98.858360
2500.000000	98.858744
2499.000000	98.859046
2498.000000	98.859328
2497.000000	98.859743
2496.000000	98.860281
2495.000000	98.860767
2494.000000	98.861109
2493.000000	98.861407
2492.000000	98.861794
2491.000000	98.862304
2490.000000	98.862908
2489.000000	98.863554
2488.000000	98.864178
2487.000000	98.864756
2486.000000	98.865402
2485.000000	98.866293
2484.000000	98.867426
2483.000000	98.868572
2482.000000	98.869585
2481.000000	98.870570
2480.000000	98.871601
2479.000000	98.872423
2478.000000	98.872683
2477.000000	98.872386
2476.000000	98.871969
2475.000000	98.871918
2474.000000	98.872368
2473.000000	98.873110
2472.000000	98.873840
2471.000000	98.874382
2470.000000	98.874748
2469.000000	98.875028
2468.000000	98.875302
2467.000000	98.875628
2466.000000	98.876050
2465.000000	98.876542
2464.000000	98.876958
2463.000000	98.877136
2462.000000	98.877095
2461.000000	98.877058
2460.000000	98.877247
2459.000000	98.877646
2458.000000	98.878042
2457.000000	98.878260
2456.000000	98.878328
2455.000000	98.878414
2454.000000	98.878673
2453.000000	98.879122
2452.000000	98.879620
2451.000000	98.879983
2450.000000	98.880171
2449.000000	98.880358
2448.000000	98.880745
2447.000000	98.881297
2446.000000	98.881713
2445.000000	98.881731
2444.000000	98.881359
2443.000000	98.880822
2442.000000	98.880370
2441.000000	98.880162
2440.000000	98.880294
2439.000000	98.880775
2438.000000	98.881480
2437.000000	98.882170
2436.000000	98.882636
2435.000000	98.882790
2434.000000	98.882668
2433.000000	98.882404
2432.000000	98.882178
2431.000000	98.882103
2430.000000	98.882096
2429.000000	98.881943
2428.000000	98.881583
2427.000000	98.881306
2426.000000	98.881538
2425.000000	98.882418
2424.000000	98.883664
2423.000000	98.884829
2422.000000	98.885689
2421.000000	98.886281
2420.000000	98.886657
2419.000000	98.886750
2418.000000	98.886528
2417.000000	98.886199
2416.000000	98.886120
2415.000000	98.886480
2414.000000	98.887166
2413.000000	98.887929
2412.000000	98.888617
2411.000000	98.889188
2410.000000	98.889581
2409.000000	98.889725
2408.000000	98.889690
2407.000000	98.889745
2406.000000	98.890180
2405.000000	98.891076
2404.000000	98.892252
2403.000000	98.893389
2402.000000	98.894261
2401.000000	98.894856
2400.000000	98.895373
2399.000000	98.896071
2398.000000	98.897067
2397.000000	98.898193
2396.000000	98.899090
2395.000000	98.899507
2394.000000	98.899546
2393.000000	98.899590
2392.000000	98.899929
2391.000000	98.900513
2390.000000	98.901184
2389.000000	98.902004
2388.000000	98.903171
2387.000000	98.904659
2386.000000	98.906149
2385.000000	98.907338
2384.000000	98.908227
2383.000000	98.909019
2382.000000	98.909872
2381.000000	98.910835
2380.000000	98.911932
2379.000000	98.913136
2378.000000	98.914284
2377.000000	98.915176
2376.000000	98.915838
2375.000000	98.916498
2374.000000	98.917265
2373.000000	98.917944
2372.000000	98.918381
2371.000000	98.918734
2370.000000	98.919152
2369.000000	98.919413
2368.000000	98.919340
2367.000000	98.919383
2366.000000	98.920190
2365.000000	98.921572
2364.000000	98.922613
2363.000000	98.922851
2362.000000	98.923103
2361.000000	98.924726
2360.000000	98.927605
2359.000000	98.930087
2358.000000	98.931003
2357.000000	98.930671
2356.000000	98.930571
2355.000000	98.931217
2354.000000	98.931775
2353.000000	98.931206
2352.000000	98.929564
2351.000000	98.928131
2350.000000	98.927537
2349.000000	98.927635
2348.000000	98.927908
2347.000000	98.927708
2346.000000	98.926763
2345.000000	98.924917
2344.000000	98.923155
2343.000000	98.922375
2342.000000	98.923049
2341.000000	98.925037
2340.000000	98.927386
2339.000000	98.929253
2338.000000	98.929939
2337.000000	98.929542
2336.000000	98.928330
2335.000000	98.926567
2334.000000	98.923839
2333.000000	98.920322
2332.000000	98.916818
2331.000000	98.915008
2330.000000	98.915021
2329.000000	98.916086
2328.000000	98.916809
2327.000000	98.916656
2326.000000	98.915964
2325.000000	98.914836
2324.000000	98.913349
2323.000000	98.911495
2322.000000	98.909820
2321.000000	98.908883
2320.000000	98.908342
2319.000000	98.907528
2318.000000	98.905830
2317.000000	98.903793
2316.000000	98.901798
2315.000000	98.900107
2314.000000	98.898457
2313.000000	98.897279
2312.000000	98.896915
2311.000000	98.897351
2310.000000	98.897637
2309.000000	98.897010
2308.000000	98.895204
2307.000000	98.892632
2306.000000	98.889890
2305.000000	98.887873
2304.000000	98.887227
2303.000000	98.887899
2302.000000	98.888809
2301.000000	98.889063
2300.000000	98.888662
2299.000000	98.888386
2298.000000	98.888584
2297.000000	98.889030
2296.000000	98.889301
2295.000000	98.889230
2294.000000	98.888740
2293.000000	98.887797
2292.000000	98.886613
2291.000000	98.885636
2290.000000	98.885148
2289.000000	98.884891
2288.000000	98.884410
2287.000000	98.883627
2286.000000	98.882958
2285.000000	98.882759
2284.000000	98.882957
2283.000000	98.883152
2282.000000	98.883020
2281.000000	98.882475
2280.000000	98.881587
2279.000000	98.880487
2278.000000	98.879388
2277.000000	98.878549
2276.000000	98.878089
2275.000000	98.877888
2274.000000	98.877705
2273.000000	98.877418
2272.000000	98.877086
2271.000000	98.876783
2270.000000	98.876473
2269.000000	98.876067
2268.000000	98.875553
2267.000000	98.875016
2266.000000	98.874558
2265.000000	98.874192
2264.000000	98.873860
2263.000000	98.873501
2262.000000	98.873101
2261.000000	98.872673
2260.000000	98.872231
2259.000000	98.871790
2258.000000	98.871366
2257.000000	98.870965
2256.000000	98.870572
2255.000000	98.870167
2254.000000	98.869742
2253.000000	98.869323
2252.000000	98.868946
2251.000000	98.868619
2250.000000	98.868324
2249.000000	98.868040
2248.000000	98.867759
2247.000000	98.867481
2246.000000	98.867200
2245.000000	98.866909
2244.000000	98.866609
2243.000000	98.866305
2242.000000	98.866002
2241.000000	98.865708
2240.000000	98.865427
2239.000000	98.865143
2238.000000	98.864839
2237.000000	98.864526
2236.000000	98.864260
2235.000000	98.864092
2234.000000	98.864012
2233.000000	98.863970
2232.000000	98.863925
2231.000000	98.863856
2230.000000	98.863731
2229.000000	98.863516
2228.000000	98.863216
2227.000000	98.862887
2226.000000	98.862613
2225.000000	98.862447
2224.000000	98.862394
2223.000000	98.862414
2222.000000	98.862433
2221.000000	98.862395
2220.000000	98.862297
2219.000000	98.862188
2218.000000	98.862118
2217.000000	98.862080
2216.000000	98.862026
2215.000000	98.861930
2214.000000	98.861821
2213.000000	98.861744
2212.000000	98.861710
2211.000000	98.861682
2210.000000	98.861624
2209.000000	98.861540
2208.000000	98.861460
2207.000000	98.861411
2206.000000	98.861398
2205.000000	98.861407
2204.000000	98.861411
2203.000000	98.861391
2202.000000	98.861353
2201.000000	98.861326
2200.000000	98.861312
2199.000000	98.861248
2198.000000	98.861042
2197.000000	98.860674
2196.000000	98.860261
2195.000000	98.859976
2194.000000	98.859921
2193.000000	98.860082
2192.000000	98.860352
2191.000000	98.860618
2190.000000	98.860826
2189.000000	98.860995
2188.000000	98.861120
2187.000000	98.861049
2186.000000	98.860648
2185.000000	98.860190
2184.000000	98.860312
2183.000000	98.861308
2182.000000	98.862583
2181.000000	98.863185
2180.000000	98.862885
2179.000000	98.862326
2178.000000	98.862162
2177.000000	98.862392
2176.000000	98.862690
2175.000000	98.862955
2174.000000	98.863223
2173.000000	98.863297
2172.000000	98.862879
2171.000000	98.862007
2170.000000	98.861073
2169.000000	98.860381
2168.000000	98.859819
2167.000000	98.859001
2166.000000	98.857690
2165.000000	98.856159
2164.000000	98.855178
2163.000000	98.855416
2162.000000	98.856713
2161.000000	98.858088
2160.000000	98.858752
2159.000000	98.859115
2158.000000	98.860455
2157.000000	98.863513
2156.000000	98.867654
2155.000000	98.871480
2154.000000	98.874112
2153.000000	98.875508
2152.000000	98.875764
2151.000000	98.874708
2150.000000	98.872424
2149.000000	98.869809
2148.000000	98.868110
2147.000000	98.867805
2146.000000	98.868250
2145.000000	98.868437
2144.000000	98.867935
2143.000000	98.867077
2142.000000	98.866441
2141.000000	98.866248
2140.000000	98.866129
2139.000000	98.865502
2138.000000	98.864335
2137.000000	98.863434
2136.000000	98.863730
2135.000000	98.865320
2134.000000	98.867493
2133.000000	98.869657
2132.000000	98.871859
2131.000000	98.874175
2130.000000	98.876082
2129.000000	98.876904
2128.000000	98.876715
2127.000000	98.876365
2126.000000	98.876490
2125.000000	98.876785
2124.000000	98.876462
2123.000000	98.875329
2122.000000	98.874192
2121.000000	98.874075
2120.000000	98.875126
2119.000000	98.876478
2118.000000	98.877254
2117.000000	98.877498
2116.000000	98.877889
2115.000000	98.878805
2114.000000	98.880109
2113.000000	98.881707
2112.000000	98.883657
2111.000000	98.885617
2110.000000	98.886805
2109.000000	98.886878
2108.000000	98.886361
2107.000000	98.885867
2106.000000	98.885267
2105.000000	98.884202
2104.000000	98.883064
2103.000000	98.882754
2102.000000	98.883508
2101.000000	98.884629
2100.000000	98.885452
2099.000000	98.886114
2098.000000	98.887096
2097.000000	98.888463
2096.000000	98.889919
2095.000000	98.891306
2094.000000	98.892635
2093.000000	98.893709
2092.000000	98.894142
2091.000000	98.893833
2090.000000	98.893180
2089.000000	98.892753
2088.000000	98.892752
2087.000000	98.892858
2086.000000	98.892650
2085.000000	98.892071
2084.000000	98.891467
2083.000000	98.891247
2082.000000	98.891570
2081.000000	98.892341
2080.000000	98.893315
2079.000000	98.894158
2078.000000	98.894608
2077.000000	98.894693
2076.000000	98.894715
2075.000000	98.894885
2074.000000	98.895035
2073.000000	98.894888
2072.000000	98.894474
2071.000000	98.894153
2070.000000	98.894196
2069.000000	98.894509
2068.000000	98.894786
2067.000000	98.894832
2066.000000	98.894693
2065.000000	98.894542
2064.000000	98.894492
2063.000000	98.894528
2062.000000	98.894576
2061.000000	98.894612
2060.000000	98.894667
2059.000000	98.894741
2058.000000	98.894774
2057.000000	98.894726
2056.000000	98.894638
2055.000000	98.894553
2054.000000	98.894415
2053.000000	98.894152
2052.000000	98.893805
2051.000000	98.893492
2050.000000	98.893278
2049.000000	98.893135
2048.000000	98.893000
2047.000000	98.892807
2046.000000	98.892540
2045.000000	98.892229
2044.000000	98.891916
2043.000000	98.891615
2042.000000	98.891308
2041.000000	98.890969
2040.000000	98.890598
2039.000000	98.890216
2038.000000	98.889850
2037.000000	98.889494
2036.000000	98.889124
2035.000000	98.888728
2034.000000	98.888319
2033.000000	98.887907
2032.000000	98.887470
2031.000000	98.886979
2030.000000	98.886423
2029.000000	98.885818
2028.000000	98.885190
2027.000000	98.884582
2026.000000	98.884028
2025.000000	98.883519
2024.000000	98.882997
2023.000000	98.882401
2022.000000	98.881756
2021.000000	98.881151
2020.000000	98.880637
2019.000000	98.880164
2018.000000	98.879621
2017.000000	98.878965
2016.000000	98.878268
2015.000000	98.877648
2014.000000	98.877135
2013.000000	98.876649
2012.000000	98.876098
2011.000000	98.875491
2010.000000	98.874907
2009.000000	98.874369
2008.000000	98.873796
2007.000000	98.873130
2006.000000	98.872429
2005.000000	98.871794
2004.000000	98.871233
2003.000000	98.870644
2002.000000	98.869908
2001.000000	98.868979
2000.000000	98.867974
1999.000000	98.867110
1998.000000	98.866534
1997.000000	98.866196
1996.000000	98.865858
1995.000000	98.865304
1994.000000	98.864554
1993.000000	98.863852
1992.000000	98.863411
1991.000000	98.863226
1990.000000	98.863106
1989.000000	98.862888
1988.000000	98.862548
1987.000000	98.862125
1986.000000	98.861606
1985.000000	98.860916
1984.000000	98.860054
1983.000000	98.859221
1982.000000	98.858714
1981.000000	98.858627
1980.000000	98.858726
1979.000000	98.858597
1978.000000	98.858062
1977.000000	98.857294
1976.000000	98.856544
1975.000000	98.855868
1974.000000	98.855243
1973.000000	98.854769
1972.000000	98.854561
1971.000000	98.854544
1970.000000	98.854587
1969.000000	98.854735
1968.000000	98.855052
1967.000000	98.855310
1966.000000	98.855169
1965.000000	98.854574
1964.000000	98.853789
1963.000000	98.853072
1962.000000	98.852500
1961.000000	98.852093
1960.000000	98.851859
1959.000000	98.851713
1958.000000	98.851520
1957.000000	98.851208
1956.000000	98.850731
1955.000000	98.850033
1954.000000	98.849173
1953.000000	98.848437
1952.000000	98.848075
1951.000000	98.848045
1950.000000	98.847990
1949.000000	98.847547
1948.000000	98.846642
1947.000000	98.845433
1946.000000	98.844114
1945.000000	98.842841
1944.000000	98.841752
1943.000000	98.840921
1942.000000	98.840307
1941.000000	98.839816
1940.000000	98.839371
1939.000000	98.838917
1938.000000	98.838406
1937.000000	98.837814
1936.000000	98.837179
1935.000000	98.836563
1934.000000	98.835967
1933.000000	98.835295
1932.000000	98.834366
1931.000000	98.833126
1930.000000	98.831705
1929.000000	98.830364
1928.000000	98.829350
1927.000000	98.828652
1926.000000	98.828004
1925.000000	98.827062
1924.000000	98.825786
1923.000000	98.824536
1922.000000	98.823655
1921.000000	98.823036
1920.000000	98.822234
1919.000000	98.820937
1918.000000	98.819227
1917.000000	98.817475
1916.000000	98.815976
1915.000000	98.814749
1914.000000	98.813712
1913.000000	98.812827
1912.000000	98.812014
1911.000000	98.811075
1910.000000	98.809789
1909.000000	98.808177
1908.000000	98.806582
1907.000000	98.805202
1906.000000	98.803902
1905.000000	98.802399
1904.000000	98.800722
1903.000000	98.799097
1902.000000	98.797280
1901.000000	98.794838
1900.000000	98.792119
1899.000000	98.790035
1898.000000	98.789013
1897.000000	98.788626
1896.000000	98.788578
1895.000000	98.789205
1894.000000	98.790259
1893.000000	98.790236
1892.000000	98.787889
1891.000000	98.783806
1890.000000	98.780050
1889.000000	98.778026
1888.000000	98.777334
1887.000000	98.776843
1886.000000	98.776198
1885.000000	98.775912
1884.000000	98.776445
1883.000000	98.777574
1882.000000	98.778311
1881.000000	98.777808
1880.000000	98.776355
1879.000000	98.774908
1878.000000	98.774085
1877.000000	98.773703
1876.000000	98.773268
1875.000000	98.772941
1874.000000	98.773237
1873.000000	98.773801
1872.000000	98.773406
1871.000000	98.771220
1870.000000	98.767757
1869.000000	98.764646
1868.000000	98.763456
1867.000000	98.764196
1866.000000	98.765268
1865.000000	98.765594
1864.000000	98.766012
1863.000000	98.768148
1862.000000	98.772332
1861.000000	98.776918
1860.000000	98.779873
1859.000000	98.780731
1858.000000	98.780722
1857.000000	98.781525
1856.000000	98.784055
1855.000000	98.787885
1854.000000	98.791579
1853.000000	98.793849
1852.000000	98.794937
1851.000000	98.795386
1850.000000	98.795505
1849.000000	98.795881
1848.000000	98.797449
1847.000000	98.800301
1846.000000	98.802991
1845.000000	98.803964
1844.000000	98.803742
1843.000000	98.804712
1842.000000	98.807383
1841.000000	98.809664
1840.000000	98.810029
1839.000000	98.808950
1838.000000	98.808128
1837.000000	98.808286
1836.000000	98.808740
1835.000000	98.808692
1834.000000	98.808196
1833.000000	98.808141
1832.000000	98.809538
1831.000000	98.812334
1830.000000	98.815423
1829.000000	98.817417
1828.000000	98.817505
1827.000000	98.815777
1826.000000	98.813317
1825.000000	98.811580
1824.000000	98.811173
1823.000000	98.811630
1822.000000	98.812064
1821.000000	98.811895
1820.000000	98.811068
1819.000000	98.810235
1818.000000	98.810567
1817.000000	98.812249
1816.000000	98.814161
1815.000000	98.815285
1814.000000	98.815599
1813.000000	98.815778
1812.000000	98.815928
1811.000000	98.815980
1810.000000	98.816141
1809.000000	98.816072
1808.000000	98.815166
1807.000000	98.813446
1806.000000	98.811525
1805.000000	98.810016
1804.000000	98.809314
1803.000000	98.809664
1802.000000	98.810665
1801.000000	98.811793
1800.000000	98.812481
1799.000000	98.812709
1798.000000	98.812726
1797.000000	98.813053
1796.000000	98.814726
1795.000000	98.818234
1794.000000	98.822103
1793.000000	98.824055
1792.000000	98.823901
1791.000000	98.824857
1790.000000	98.828450
1789.000000	98.832009
1788.000000	98.832772
1787.000000	98.830771
1786.000000	98.827728
1785.000000	98.825155
1784.000000	98.824297
1783.000000	98.826150
1782.000000	98.829871
1781.000000	98.834206
1780.000000	98.837954
1779.000000	98.841188
1778.000000	98.844434
1777.000000	98.847621
1776.000000	98.850871
1775.000000	98.854313
1774.000000	98.857983
1773.000000	98.861080
1772.000000	98.861681
1771.000000	98.860012
1770.000000	98.859427
1769.000000	98.861968
1768.000000	98.866743
1767.000000	98.871449
1766.000000	98.874833
1765.000000	98.877719
1764.000000	98.881454
1763.000000	98.886768
1762.000000	98.892509
1761.000000	98.896968
1760.000000	98.898753
1759.000000	98.898359
1758.000000	98.897126
1757.000000	98.896239
1756.000000	98.895586
1755.000000	98.893634
1754.000000	98.890155
1753.000000	98.887175
1752.000000	98.886672
1751.000000	98.887206
1750.000000	98.886399
1749.000000	98.884030
1748.000000	98.882189
1747.000000	98.882380
1746.000000	98.884123
1745.000000	98.886246
1744.000000	98.886860
1743.000000	98.885513
1742.000000	98.884192
1741.000000	98.884534
1740.000000	98.884973
1739.000000	98.883421
1738.000000	98.880315
1737.000000	98.877427
1736.000000	98.876310
1735.000000	98.877445
1734.000000	98.877796
1733.000000	98.875997
1732.000000	98.874738
1731.000000	98.874709
1730.000000	98.875613
1729.000000	98.877375
1728.000000	98.879791
1727.000000	98.882034
1726.000000	98.883576
1725.000000	98.884645
1724.000000	98.884595
1723.000000	98.883379
1722.000000	98.882012
1721.000000	98.881264
1720.000000	98.881413
1719.000000	98.882703
1718.000000	98.884578
1717.000000	98.884582
1716.000000	98.881970
1715.000000	98.879118
1714.000000	98.877915
1713.000000	98.878051
1712.000000	98.878552
1711.000000	98.879038
1710.000000	98.879202
1709.000000	98.878697
1708.000000	98.877486
1707.000000	98.875547
1706.000000	98.872974
1705.000000	98.869805
1704.000000	98.866862
1703.000000	98.864774
1702.000000	98.863546
1701.000000	98.861730
1700.000000	98.856703
1699.000000	98.851169
1698.000000	98.848348
1697.000000	98.847046
1696.000000	98.846659
1695.000000	98.847632
1694.000000	98.849338
1693.000000	98.849933
1692.000000	98.848922
1691.000000	98.847694
1690.000000	98.847219
1689.000000	98.847101
1688.000000	98.846656
1687.000000	98.845193
1686.000000	98.843454
1685.000000	98.841924
1684.000000	98.840102
1683.000000	98.838846
1682.000000	98.838140
1681.000000	98.837128
1680.000000	98.836556
1679.000000	98.836631
1678.000000	98.836407
1677.000000	98.835333
1676.000000	98.833690
1675.000000	98.831739
1674.000000	98.829726
1673.000000	98.828498
1672.000000	98.828032
1671.000000	98.827823
1670.000000	98.826714
1669.000000	98.824673
1668.000000	98.823388
1667.000000	98.823271
1666.000000	98.823351
1665.000000	98.823174
1664.000000	98.823085
1663.000000	98.823474
1662.000000	98.823553
1661.000000	98.822978
1660.000000	98.822251
1659.000000	98.821363
1658.000000	98.819543
1657.000000	98.816459
1656.000000	98.812607
1655.000000	98.809602
1654.000000	98.808921
1653.000000	98.808396
1652.000000	98.807476
1651.000000	98.808322
1650.000000	98.809144
1649.000000	98.809051
1648.000000	98.808677
1647.000000	98.808398
1646.000000	98.808144
1645.000000	98.808156
1644.000000	98.808517
1643.000000	98.809282
1642.000000	98.809861
1641.000000	98.809744
1640.000000	98.808881
1639.000000	98.807321
1638.000000	98.805658
1637.000000	98.805012
1636.000000	98.806520
1635.000000	98.809135
1634.000000	98.811010
1633.000000	98.810927
1632.000000	98.809540
1631.000000	98.808904
1630.000000	98.810287
1629.000000	98.813303
1628.000000	98.816718
1627.000000	98.819625
1626.000000	98.821264
1625.000000	98.821459
1624.000000	98.820627
1623.000000	98.819793
1622.000000	98.819770
1621.000000	98.820760
1620.000000	98.822258
1619.000000	98.823725
1618.000000	98.825191
1617.000000	98.826495
1616.000000	98.827881
1615.000000	98.829879
1614.000000	98.832561
1613.000000	98.836300
1612.000000	98.841547
1611.000000	98.846894
1610.000000	98.849541
1609.000000	98.849242
1608.000000	98.848924
1607.000000	98.850674
1606.000000	98.853192
1605.000000	98.855038
1604.000000	98.856626
1603.000000	98.858660
1602.000000	98.860895
1601.000000	98.862880
1600.000000	98.865045
1599.000000	98.868075
1598.000000	98.871947
1597.000000	98.875930
1596.000000	98.879003
1595.000000	98.880336
1594.000000	98.879724
1593.000000	98.878070
1592.000000	98.876875
1591.000000	98.876984
1590.000000	98.878026
1589.000000	98.879196
1588.000000	98.880111
1587.000000	98.880878
1586.000000	98.881776
1585.000000	98.882985
1584.000000	98.884501
1583.000000	98.885282
1582.000000	98.884489
1581.000000	98.882859
1580.000000	98.881843
1579.000000	98.881754
1578.000000	98.882434
1577.000000	98.884078
1576.000000	98.886431
1575.000000	98.888338
1574.000000	98.888933
1573.000000	98.888456
1572.000000	98.887639
1571.000000	98.886928
1570.000000	98.886023
1569.000000	98.885035
1568.000000	98.884869
1567.000000	98.885081
1566.000000	98.884727
1565.000000	98.883752
1564.000000	98.882962
1563.000000	98.882492
1562.000000	98.881976
1561.000000	98.881940
1560.000000	98.883783
1559.000000	98.885318
1558.000000	98.884684
1557.000000	98.884058
1556.000000	98.883174
1555.000000	98.881247
1554.000000	98.878223
1553.000000	98.875365
1552.000000	98.873612
1551.000000	98.872809
1550.000000	98.872669
1549.000000	98.872885
1548.000000	98.873683
1547.000000	98.875019
1546.000000	98.876173
1545.000000	98.875761
1544.000000	98.873152
1543.000000	98.869751
1542.000000	98.868660
1541.000000	98.871190
1540.000000	98.874437
1539.000000	98.874467
1538.000000	98.871504
1537.000000	98.867616
1536.000000	98.864374
1535.000000	98.862869
1534.000000	98.862120
1533.000000	98.859612
1532.000000	98.854720
1531.000000	98.849433
1530.000000	98.845370
1529.000000	98.842537
1528.000000	98.840279
1527.000000	98.838277
1526.000000	98.836083
1525.000000	98.833082
1524.000000	98.829017
1523.000000	98.824973
1522.000000	98.822495
1521.000000	98.821472
1520.000000	98.821082
1519.000000	98.820796
1518.000000	98.820535
1517.000000	98.820971
1516.000000	98.822535
1515.000000	98.825077
1514.000000	98.827373
1513.000000	98.828282
1512.000000	98.827001
1511.000000	98.824759
1510.000000	98.824108
1509.000000	98.826659
1508.000000	98.831251
1507.000000	98.833988
1506.000000	98.833714
1505.000000	98.832625
1504.000000	98.830729
1503.000000	98.826806
1502.000000	98.821039
1501.000000	98.815093
1500.000000	98.810818
1499.000000	98.809012
1498.000000	98.810002
1497.000000	98.812883
1496.000000	98.815727
1495.000000	98.818822
1494.000000	98.823001
1493.000000	98.827259
1492.000000	98.829888
1491.000000	98.830403
1490.000000	98.829757
1489.000000	98.829017
1488.000000	98.827961
1487.000000	98.826787
1486.000000	98.825674
1485.000000	98.824011
1484.000000	98.822125
1483.000000	98.820404
1482.000000	98.819243
1481.000000	98.818137
1480.000000	98.816306
1479.000000	98.813913
1478.000000	98.812080
1477.000000	98.811468
1476.000000	98.811368
1475.000000	98.810982
1474.000000	98.809974
1473.000000	98.808904
1472.000000	98.808456
1471.000000	98.808770
1470.000000	98.808903
1469.000000	98.807845
1468.000000	98.805640
1467.000000	98.803624
1466.000000	98.803160
1465.000000	98.804351
1464.000000	98.805809
1463.000000	98.806182
1462.000000	98.805674
1461.000000	98.804883
1460.000000	98.804035
1459.000000	98.802898
1458.000000	98.801404
1457.000000	98.799679
1456.000000	98.798165
1455.000000	98.797006
1454.000000	98.795677
1453.000000	98.793989
1452.000000	98.791937
1451.000000	98.789699
1450.000000	98.787926
1449.000000	98.787459
1448.000000	98.788227
1447.000000	98.789033
1446.000000	98.788419
1445.000000	98.786498
1444.000000	98.784064
1443.000000	98.781558
1442.000000	98.779116
1441.000000	98.776692
1440.000000	98.774141
1439.000000	98.771478
1438.000000	98.770122
1437.000000	98.771158
1436.000000	98.773313
1435.000000	98.774286
1434.000000	98.773658
1433.000000	98.772089
1432.000000	98.770468
1431.000000	98.769158
1430.000000	98.768441
1429.000000	98.768305
1428.000000	98.767801
1427.000000	98.766196
1426.000000	98.763697
1425.000000	98.762439
1424.000000	98.763626
1423.000000	98.765511
1422.000000	98.766192
1421.000000	98.765784
1420.000000	98.764844
1419.000000	98.762327
1418.000000	98.759436
1417.000000	98.758613
1416.000000	98.758777
1415.000000	98.757448
1414.000000	98.754066
1413.000000	98.750631
1412.000000	98.749393
1411.000000	98.750739
1410.000000	98.753894
1409.000000	98.757795
1408.000000	98.761339
1407.000000	98.764471
1406.000000	98.767646
1405.000000	98.771487
1404.000000	98.775345
1403.000000	98.777818
1402.000000	98.779295
1401.000000	98.781641
1400.000000	98.785872
1399.000000	98.790401
1398.000000	98.793121
1397.000000	98.793706
1396.000000	98.793170
1395.000000	98.792925
1394.000000	98.794364
1393.000000	98.798565
1392.000000	98.804527
1391.000000	98.810017
1390.000000	98.813773
1389.000000	98.816213
1388.000000	98.818418
1387.000000	98.820980
1386.000000	98.823619
1385.000000	98.825794
1384.000000	98.827183
1383.000000	98.827775
1382.000000	98.827974
1381.000000	98.828147
1380.000000	98.828572
1379.000000	98.829461
1378.000000	98.830929
1377.000000	98.832906
1376.000000	98.835197
1375.000000	98.837612
1374.000000	98.840150
1373.000000	98.843102
1372.000000	98.846485
1371.000000	98.849914
1370.000000	98.852750
1369.000000	98.854582
1368.000000	98.855352
1367.000000	98.855456
1366.000000	98.855750
1365.000000	98.857073
1364.000000	98.859667
1363.000000	98.862983
1362.000000	98.866171
1361.000000	98.868899
1360.000000	98.871229
1359.000000	98.872980
1358.000000	98.873830
1357.000000	98.873973
1356.000000	98.874208
1355.000000	98.875299
1354.000000	98.877424
1353.000000	98.880154
1352.000000	98.882675
1351.000000	98.884270
1350.000000	98.884452
1349.000000	98.883494
1348.000000	98.882296
1347.000000	98.881730
1346.000000	98.882174
1345.000000	98.883556
1344.000000	98.885404
1343.000000	98.886972
1342.000000	98.887715
1341.000000	98.887831
1340.000000	98.888202
1339.000000	98.889612
1338.000000	98.891988
1337.000000	98.894393
1336.000000	98.895664
1335.000000	98.895323
1334.000000	98.894066
1333.000000	98.893092
1332.000000	98.892772
1331.000000	98.892488
1330.000000	98.891945
1329.000000	98.891921
1328.000000	98.892966
1327.000000	98.894346
1326.000000	98.895075
1325.000000	98.895640
1324.000000	98.897032
1323.000000	98.898751
1322.000000	98.899238
1321.000000	98.897856
1320.000000	98.895160
1319.000000	98.891797
1318.000000	98.888587
1317.000000	98.887082
1316.000000	98.888457
1315.000000	98.891874
1314.000000	98.895154
1313.000000	98.897099
1312.000000	98.898085
1311.000000	98.898454
1310.000000	98.897699
1309.000000	98.895649
1308.000000	98.893359
1307.000000	98.892472
1306.000000	98.893826
1305.000000	98.896960
1304.000000	98.900110
1303.000000	98.901154
1302.000000	98.899395
1301.000000	98.896308
1300.000000	98.893860
1299.000000	98.892489
1298.000000	98.891625
1297.000000	98.891448
1296.000000	98.892648
1295.000000	98.894588
1294.000000	98.895465
1293.000000	98.894704
1292.000000	98.893875
1291.000000	98.894642
1290.000000	98.896632
1289.000000	98.897889
1288.000000	98.896863
1287.000000	98.893614
1286.000000	98.889792
1285.000000	98.887565
1284.000000	98.887892
1283.000000	98.889632
1282.000000	98.890892
1281.000000	98.891265
1280.000000	98.891905
1279.000000	98.893320
1278.000000	98.894516
1277.000000	98.894715
1276.000000	98.894578
1275.000000	98.894892
1274.000000	98.895218
1273.000000	98.894777
1272.000000	98.893808
1271.000000	98.893147
1270.000000	98.893092
1269.000000	98.893464
1268.000000	98.894188
1267.000000	98.895036
1266.000000	98.895422
1265.000000	98.894890
1264.000000	98.893344
1263.000000	98.890712
1262.000000	98.887216
1261.000000	98.884150
1260.000000	98.883295
1259.000000	98.884793
1258.000000	98.886660
1257.000000	98.887024
1256.000000	98.886081
1255.000000	98.885177
1254.000000	98.884678
1253.000000	98.883386
1252.000000	98.879838
1251.000000	98.873809
1250.000000	98.866869
1249.000000	98.861494
1248.000000	98.859104
1247.000000	98.858676
1246.000000	98.857622
1245.000000	98.853994
1244.000000	98.847749
1243.000000	98.840610
1242.000000	98.835154
1241.000000	98.832815
1240.000000	98.831544
1239.000000	98.826630
1238.000000	98.815826
1237.000000	98.803044
1236.000000	98.794767
1235.000000	98.792893
1234.000000	98.793304
1233.000000	98.791320
1232.000000	98.785624
1231.000000	98.776546
1230.000000	98.764162
1229.000000	98.749943
1228.000000	98.737542
1227.000000	98.729323
1226.000000	98.723245
1225.000000	98.714983
1224.000000	98.701899
1223.000000	98.683637
1222.000000	98.660981
1221.000000	98.636261
1220.000000	98.613137
1219.000000	98.593131
1218.000000	98.573235
1217.000000	98.549465
1216.000000	98.521931
1215.000000	98.493943
1214.000000	98.466940
1213.000000	98.439289
1212.000000	98.409810
1211.000000	98.379348
1210.000000	98.348307
1209.000000	98.315408
1208.000000	98.279748
1207.000000	98.241928
1206.000000	98.202710
1205.000000	98.162909
1204.000000	98.125130
1203.000000	98.092746
1202.000000	98.065520
1201.000000	98.038240
1200.000000	98.005408
1199.000000	97.966180
1198.000000	97.923955
1197.000000	97.882376
1196.000000	97.842739
1195.000000	97.804231
1194.000000	97.765427
1193.000000	97.725847
1192.000000	97.686253
1191.000000	97.646991
1190.000000	97.606739
1189.000000	97.564091
1188.000000	97.519561
1187.000000	97.474248
1186.000000	97.427265
1185.000000	97.376883
1184.000000	97.323870
1183.000000	97.271004
1182.000000	97.219031
1181.000000	97.165670
1180.000000	97.109025
1179.000000	97.049295
1178.000000	96.986701
1177.000000	96.920789
1176.000000	96.853042
1175.000000	96.787503
1174.000000	96.726924
1173.000000	96.669796
1172.000000	96.612029
1171.000000	96.549997
1170.000000	96.482176
1169.000000	96.410850
1168.000000	96.342965
1167.000000	96.286467
1166.000000	96.244588
1165.000000	96.215845
1164.000000	96.199744
1163.000000	96.198983
1162.000000	96.214805
1161.000000	96.242988
1160.000000	96.275493
1159.000000	96.303832
1158.000000	96.320858
1157.000000	96.322492
1156.000000	96.309058
1155.000000	96.283250
1154.000000	96.246517
1153.000000	96.199401
1152.000000	96.145335
1151.000000	96.090927
1150.000000	96.041019
1149.000000	95.995595
1148.000000	95.952260
1147.000000	95.909225
1146.000000	95.865284
1145.000000	95.820050
1144.000000	95.775731
1143.000000	95.736184
1142.000000	95.702546
1141.000000	95.671325
1140.000000	95.637653
1139.000000	95.599075
1138.000000	95.556358
1137.000000	95.512586
1136.000000	95.471157
1135.000000	95.432437
1134.000000	95.392767
1133.000000	95.349100
1132.000000	95.303507
1131.000000	95.260025
1130.000000	95.218281
1129.000000	95.174470
1128.000000	95.128144
1127.000000	95.083287
1126.000000	95.042029
1125.000000	95.001434
1124.000000	94.957628
1123.000000	94.909846
1122.000000	94.859866
1121.000000	94.810477
1120.000000	94.764667
1119.000000	94.723145
1118.000000	94.682530
1117.000000	94.639335
1116.000000	94.595368
1115.000000	94.555076
1114.000000	94.517710
1113.000000	94.477151
1112.000000	94.430692
1111.000000	94.383402
1110.000000	94.342246
1109.000000	94.309840
1108.000000	94.284311
1107.000000	94.260536
1106.000000	94.231003
1105.000000	94.190894
1104.000000	94.143660
1103.000000	94.097211
1102.000000	94.054246
1101.000000	94.011573
1100.000000	93.968721
1099.000000	93.930591
1098.000000	93.899538
1097.000000	93.871579
1096.000000	93.842368
1095.000000	93.810997
1094.000000	93.776052
1093.000000	93.734292
1092.000000	93.686096
1091.000000	93.637138
1090.000000	93.592162
1089.000000	93.551468
1088.000000	93.514620
1087.000000	93.482038
1086.000000	93.451531
1085.000000	93.418745
1084.000000	93.382372
1083.000000	93.344062
1082.000000	93.303691
1081.000000	93.261273
1080.000000	93.223039
1079.000000	93.196836
1078.000000	93.179742
1077.000000	93.158800
1076.000000	93.126441
1075.000000	93.087043
1074.000000	93.046215
1073.000000	93.002129
1072.000000	92.950993
1071.000000	92.892683
1070.000000	92.826411
1069.000000	92.748394
1068.000000	92.658990
1067.000000	92.565963
1066.000000	92.475582
1065.000000	92.386019
1064.000000	92.294432
1063.000000	92.204447
1062.000000	92.120938
1061.000000	92.042226
1060.000000	91.963069
1059.000000	91.881860
1058.000000	91.800511
1057.000000	91.720232
1056.000000	91.640796
1055.000000	91.561389
1054.000000	91.480290
1053.000000	91.396736
1052.000000	91.313489
1051.000000	91.232740
1050.000000	91.149571
1049.000000	91.056603
1048.000000	90.955040
1047.000000	90.852761
1046.000000	90.751488
1045.000000	90.644933
1044.000000	90.530471
1043.000000	90.414126
1042.000000	90.301985
1041.000000	90.193888
1040.000000	90.087831
1039.000000	89.984119
1038.000000	89.883223
1037.000000	89.785681
1036.000000	89.695289
1035.000000	89.616314
1034.000000	89.547346
1033.000000	89.484151
1032.000000	89.427544
1031.000000	89.380854
1030.000000	89.341176
1029.000000	89.302407
1028.000000	89.265770
1027.000000	89.236963
1026.000000	89.213710
1025.000000	89.187396
1024.000000	89.157143
1023.000000	89.130275
1022.000000	89.107906
1021.000000	89.082672
1020.000000	89.052970
1019.000000	89.026897
1018.000000	89.008356
1017.000000	88.991185
1016.000000	88.971407
1015.000000	88.953903
1014.000000	88.941285
1013.000000	88.926410
1012.000000	88.902551
1011.000000	88.873182
1010.000000	88.845997
1009.000000	88.823870
1008.000000	88.806224
1007.000000	88.792999
1006.000000	88.783400
1005.000000	88.776196
1004.000000	88.773470
1003.000000	88.778112
1002.000000	88.786591
1001.000000	88.791490
1000.000000	88.792249
999.000000	88.795399
998.000000	88.803076
997.000000	88.810241
996.000000	88.815245
995.000000	88.823863
994.000000	88.839385
993.000000	88.856898
992.000000	88.871047
991.000000	88.882517
990.000000	88.893986
989.000000	88.906678
988.000000	88.923458
987.000000	88.948207
986.000000	88.979501
985.000000	89.011573
984.000000	89.043701
983.000000	89.081764
982.000000	89.128684
981.000000	89.180689
980.000000	89.234910
979.000000	89.293151
978.000000	89.355871
977.000000	89.420191
976.000000	89.486846
975.000000	89.561886
974.000000	89.648012
973.000000	89.740232
972.000000	89.832958
971.000000	89.925859
970.000000	90.020235
969.000000	90.115129
968.000000	90.209554
967.000000	90.303813
966.000000	90.396782
965.000000	90.486479
964.000000	90.574565
963.000000	90.665494
962.000000	90.760052
961.000000	90.854303
960.000000	90.945672
959.000000	91.035240
958.000000	91.123588
957.000000	91.209611
956.000000	91.294245
955.000000	91.380104
954.000000	91.466039
953.000000	91.546653
952.000000	91.618485
951.000000	91.682843
950.000000	91.742078
949.000000	91.797022
948.000000	91.848468
947.000000	91.896993
946.000000	91.940822
945.000000	91.977804
944.000000	92.009789
943.000000	92.041323
942.000000	92.073964
941.000000	92.105749
940.000000	92.136052
939.000000	92.166565
938.000000	92.197333
937.000000	92.225980
936.000000	92.251424
935.000000	92.275143
934.000000	92.299166
933.000000	92.326083
932.000000	92.359770
931.000000	92.401666
930.000000	92.446798
929.000000	92.487480
928.000000	92.520482
927.000000	92.547719
926.000000	92.572363
925.000000	92.598367
924.000000	92.630878
923.000000	92.671028
922.000000	92.711513
921.000000	92.743043
920.000000	92.764515
919.000000	92.781967
918.000000	92.799070
917.000000	92.814433
916.000000	92.827572
915.000000	92.841758
914.000000	92.860710
913.000000	92.886938
912.000000	92.922611
911.000000	92.967605
910.000000	93.017886
909.000000	93.070202
908.000000	93.126489
907.000000	93.189404
906.000000	93.257017
905.000000	93.327351
904.000000	93.404316
903.000000	93.492068
902.000000	93.586508
901.000000	93.679872
900.000000	93.771428
899.000000	93.865835
898.000000	93.963217
897.000000	94.059345
896.000000	94.154356
895.000000	94.252885
894.000000	94.355564
893.000000	94.457580
892.000000	94.555527
891.000000	94.648759
890.000000	94.734293
889.000000	94.807801
888.000000	94.870920
887.000000	94.931662
886.000000	94.995882
885.000000	95.062548
884.000000	95.128012
883.000000	95.190445
882.000000	95.249856
881.000000	95.308001
880.000000	95.368303
879.000000	95.432214
878.000000	95.496683
877.000000	95.559035
876.000000	95.621997
875.000000	95.688766
874.000000	95.755509
873.000000	95.815098
872.000000	95.867416
871.000000	95.920944
870.000000	95.984991
869.000000	96.063770
868.000000	96.155131
867.000000	96.250019
866.000000	96.336221
865.000000	96.408706
864.000000	96.474849
863.000000	96.545390
862.000000	96.622519
861.000000	96.700989
860.000000	96.777338
859.000000	96.852290
858.000000	96.926937
857.000000	97.001986
856.000000	97.077842
855.000000	97.150478
854.000000	97.211740
853.000000	97.260232
852.000000	97.307481
851.000000	97.365300
850.000000	97.430120
849.000000	97.488411
848.000000	97.534371
847.000000	97.572867
846.000000	97.607241
845.000000	97.634642
844.000000	97.653820
843.000000	97.668114
842.000000	97.679052
841.000000	97.684701
840.000000	97.685489
839.000000	97.684328
838.000000	97.680257
837.000000	97.669753
836.000000	97.655404
835.000000	97.645174
834.000000	97.641176
833.000000	97.637077
832.000000	97.629052
831.000000	97.621316
830.000000	97.617646
829.000000	97.615697
828.000000	97.614377
827.000000	97.618852
826.000000	97.631900
825.000000	97.647135
824.000000	97.657652
823.000000	97.665070
822.000000	97.673683
821.000000	97.682369
820.000000	97.688484
819.000000	97.693125
818.000000	97.696208
817.000000	97.691107
816.000000	97.669846
815.000000	97.630874
814.000000	97.577270
813.000000	97.509052
812.000000	97.420960
811.000000	97.306253
810.000000	97.159793
809.000000	96.979738
808.000000	96.770106
807.000000	96.540395
806.000000	96.299322
805.000000	96.050457
804.000000	95.796665
803.000000	95.545964
802.000000	95.309497
801.000000	95.096355
800.000000	94.913750
799.000000	94.768908
798.000000	94.666561
797.000000	94.605834
796.000000	94.581003
795.000000	94.583315
794.000000	94.602576
793.000000	94.630750
792.000000	94.663737
791.000000	94.696644
790.000000	94.719974
789.000000	94.725812
788.000000	94.715823
787.000000	94.697404
786.000000	94.673234
785.000000	94.639892
784.000000	94.594378
783.000000	94.535098
782.000000	94.458902
781.000000	94.366544
780.000000	94.271482
779.000000	94.194771
778.000000	94.149634
777.000000	94.137117
776.000000	94.154863
775.000000	94.200029
774.000000	94.263605
773.000000	94.333081
772.000000	94.403448
771.000000	94.476952
770.000000	94.550993
769.000000	94.616323
768.000000	94.669302
767.000000	94.715637
766.000000	94.758791
765.000000	94.794969
764.000000	94.824185
763.000000	94.856148
762.000000	94.898049
761.000000	94.944066
760.000000	94.984066
759.000000	95.016945
758.000000	95.049034
757.000000	95.084413
756.000000	95.123390
755.000000	95.166506
754.000000	95.213637
753.000000	95.261277
752.000000	95.305381
751.000000	95.345567
750.000000	95.384202
749.000000	95.424162
748.000000	95.469627
747.000000	95.525289
746.000000	95.591605
745.000000	95.663581
744.000000	95.736278
743.000000	95.808094
742.000000	95.876937
741.000000	95.938355
740.000000	95.991640
739.000000	96.044519
738.000000	96.107360
737.000000	96.183190
736.000000	96.265145
735.000000	96.342172
734.000000	96.406134
733.000000	96.455924
732.000000	96.496970
731.000000	96.535814
730.000000	96.574006
729.000000	96.608209
728.000000	96.636185
727.000000	96.660508
726.000000	96.685982
725.000000	96.715451
724.000000	96.748960
723.000000	96.785468
722.000000	96.824859
721.000000	96.868842
720.000000	96.918702
719.000000	96.970889
718.000000	97.017397
717.000000	97.053497
716.000000	97.083150
715.000000	97.113951
714.000000	97.148627
713.000000	97.184638
712.000000	97.219182
711.000000	97.249438
710.000000	97.270329
709.000000	97.279183
708.000000	97.282477
707.000000	97.289959
706.000000	97.300533
705.000000	97.301252
704.000000	97.282889
703.000000	97.249128
702.000000	97.205020
701.000000	97.141492
700.000000	97.039043
699.000000	96.887837
698.000000	96.703195
697.000000	96.522316
696.000000	96.384474
695.000000	96.309952
694.000000	96.294287
693.000000	96.321000
692.000000	96.377624
691.000000	96.457925
690.000000	96.554070
689.000000	96.654830
688.000000	96.751759
687.000000	96.840735
686.000000	96.916193
685.000000	96.971225
684.000000	97.006871
683.000000	97.035949
682.000000	97.074190
681.000000	97.129909
680.000000	97.202101
679.000000	97.283044
678.000000	97.360374
677.000000	97.421134
676.000000	97.460277
675.000000	97.483220
674.000000	97.499450
673.000000	97.515114
672.000000	97.532778
671.000000	97.556511
670.000000	97.596970
669.000000	97.670357
668.000000	97.776003
667.000000	97.872656
666.000000	97.924975
665.000000	97.939154
664.000000	97.933132
663.000000	97.922347
662.000000	97.920827
661.000000	97.938819
660.000000	97.978814
659.000000	98.031821
658.000000	98.078454
657.000000	98.101971
656.000000	98.102918
655.000000	98.096725
654.000000	98.098324
653.000000	98.110910
652.000000	98.128144
651.000000	98.141289
650.000000	98.143705
649.000000	98.135138
648.000000	98.124551
647.000000	98.125504
646.000000	98.144941
645.000000	98.177782
644.000000	98.214600
643.000000	98.251391
642.000000	98.290704
641.000000	98.336044
640.000000	98.385496
639.000000	98.428598
638.000000	98.451965
637.000000	98.452554
636.000000	98.443887
635.000000	98.446404
634.000000	98.470746
633.000000	98.512123
632.000000	98.558493
631.000000	98.597783
630.000000	98.620796
629.000000	98.626544
628.000000	98.626667
627.000000	98.639849
626.000000	98.678443
625.000000	98.740264
624.000000	98.812066
623.000000	98.875409
622.000000	98.912237
621.000000	98.913939
620.000000	98.887154
619.000000	98.852166
618.000000	98.834787
617.000000	98.853324
616.000000	98.906116
615.000000	98.966016
614.000000	98.994695
613.000000	98.973771
612.000000	98.921057
611.000000	98.876465
610.000000	98.867806
609.000000	98.886515
608.000000	98.896773
607.000000	98.866154
606.000000	98.793594
605.000000	98.708917
604.000000	98.641655
603.000000	98.594954
602.000000	98.554672
601.000000	98.521015
600.000000	98.516461
599.000000	98.553597
598.000000	98.607300
597.000000	98.635186
596.000000	98.619122
595.000000	98.575251
594.000000	98.536487
593.000000	98.536066
592.000000	98.594336
591.000000	98.695990
590.000000	98.784975
589.000000	98.815263
588.000000	98.799661
587.000000	98.787872
586.000000	98.803755
585.000000	98.824624
584.000000	98.824451
583.000000	98.808495
582.000000	98.798250
581.000000	98.805140
580.000000	98.829308
579.000000	98.863482
578.000000	98.892658
577.000000	98.911061
576.000000	98.935185
575.000000	98.975972
574.000000	99.004298
573.000000	98.980342
572.000000	98.909970
571.000000	98.842563
570.000000	98.813729
569.000000	98.815880
568.000000	98.832009
567.000000	98.855563
566.000000	98.867246
565.000000	98.834078
564.000000	98.746039
563.000000	98.627960
562.000000	98.511188
561.000000	98.416268
560.000000	98.368391
559.000000	98.390175
558.000000	98.459478
557.000000	98.511861
556.000000	98.507003
555.000000	98.457434
554.000000	98.392009
553.000000	98.323835
552.000000	98.261768
551.000000	98.219206
550.000000	98.192279
